# Source: https://omlc.org/spectra/PhotochemCAD/html/004.html
# Date Accessed: 20 Jan 2021
219.00	1.0325	
220.00	1.0512	
221.00	1.0473	
222.00	1.0170	
223.00	0.97191	
224.00	0.92173	
225.00	0.87323	
226.00	0.82682	
227.00	0.78293	
228.00	0.74408	
229.00	0.71067	
230.00	0.68348	
231.00	0.66176	
232.00	0.64406	
233.00	0.63004	
234.00	0.61960	
235.00	0.61303	
236.00	0.61045	
237.00	0.61125	
238.00	0.61542	
239.00	0.62260	
240.00	0.63180	
241.00	0.64243	
242.00	0.65407	
243.00	0.66606	
244.00	0.67838	
245.00	0.69195	
246.00	0.70590	
247.00	0.71986	
248.00	0.73278	
249.00	0.74469	
250.00	0.75531	
251.00	0.76487	
252.00	0.77331	
253.00	0.78268	
254.00	0.79330	
255.00	0.80590	
256.00	0.82054	
257.00	0.83637	
258.00	0.85231	
259.00	0.86690	
260.00	0.87902	
261.00	0.88797	
262.00	0.89359	
263.00	0.89449	
264.00	0.88917	
265.00	0.87698	
266.00	0.85835	
267.00	0.83587	
268.00	0.81191	
269.00	0.78779	
270.00	0.76354	
271.00	0.73872	
272.00	0.71158	
273.00	0.68194	
274.00	0.65097	
275.00	0.61938	
276.00	0.58814	
277.00	0.55765	
278.00	0.52867	
279.00	0.50041	
280.00	0.47259	
281.00	0.44569	
282.00	0.41963	
283.00	0.39477	
284.00	0.37027	
285.00	0.34680	
286.00	0.32505	
287.00	0.30545	
288.00	0.28763	
289.00	0.27226	
290.00	0.25901	
291.00	0.24775	
292.00	0.23834	
293.00	0.23152	
294.00	0.22629	
295.00	0.22238	
296.00	0.21982	
297.00	0.21855	
298.00	0.21808	
299.00	0.21855	
300.00	0.21996	
301.00	0.22143	
302.00	0.22349	
303.00	0.22596	
304.00	0.22889	
305.00	0.23199	
306.00	0.23534	
307.00	0.23856	
308.00	0.24213	
309.00	0.24565	
310.00	0.24949	
311.00	0.25315	
312.00	0.25689	
313.00	0.26070	
314.00	0.26461	
315.00	0.26869	
316.00	0.27274	
317.00	0.27701	
318.00	0.28097	
319.00	0.28546	
320.00	0.28954	
321.00	0.29394	
322.00	0.29836	
323.00	0.30270	
324.00	0.30679	
325.00	0.31099	
326.00	0.31481	
327.00	0.31864	
328.00	0.32235	
329.00	0.32547	
330.00	0.32876	
331.00	0.33167	
332.00	0.33450	
333.00	0.33694	
334.00	0.33925	
335.00	0.34142	
336.00	0.34338	
337.00	0.34515	
338.00	0.34655	
339.00	0.34808	
340.00	0.34939	
341.00	0.35038	
342.00	0.35144	
343.00	0.35211	
344.00	0.35253	
345.00	0.35285	
346.00	0.35300	
347.00	0.35293	
348.00	0.35277	
349.00	0.35211	
350.00	0.35117	
351.00	0.35034	
352.00	0.34961	
353.00	0.34850	
354.00	0.34733	
355.00	0.34619	
356.00	0.34520	
357.00	0.34408	
358.00	0.34343	
359.00	0.34340	
360.00	0.34353	
361.00	0.34326	
362.00	0.34372	
363.00	0.34466	
364.00	0.34544	
365.00	0.34526	
366.00	0.34334	
367.00	0.34029	
368.00	0.33747	
369.00	0.33645	
370.00	0.33656	
371.00	0.33628	
372.00	0.33538	
373.00	0.33408	
374.00	0.33284	
375.00	0.33089	
376.00	0.32895	
377.00	0.32673	
378.00	0.32504	
379.00	0.32346	
380.00	0.32175	
381.00	0.32021	
382.00	0.31834	
383.00	0.31671	
384.00	0.31528	
385.00	0.31441	
386.00	0.31338	
387.00	0.31256	
388.00	0.31160	
389.00	0.31098	
390.00	0.31006	
391.00	0.30977	
392.00	0.30959	
393.00	0.30915	
394.00	0.30865	
395.00	0.30830	
396.00	0.30842	
397.00	0.30856	
398.00	0.30860	
399.00	0.30887	
400.00	0.30856	
401.00	0.30887	
402.00	0.30928	
403.00	0.30900	
404.00	0.30848	
405.00	0.30939	
406.00	0.30899	
407.00	0.30878	
408.00	0.30866	
409.00	0.30865	
410.00	0.30826	
411.00	0.30751	
412.00	0.30707	
413.00	0.30654	
414.00	0.30543	
415.00	0.30462	
416.00	0.30413	
417.00	0.30387	
418.00	0.30373	
419.00	0.30332	
420.00	0.30344	
421.00	0.30390	
422.00	0.30442	
423.00	0.30472	
424.00	0.30540	
425.00	0.30630	
426.00	0.30747	
427.00	0.30909	
428.00	0.31046	
429.00	0.31254	
430.00	0.31468	
431.00	0.31601	
432.00	0.31735	
433.00	0.31984	
434.00	0.32278	
435.00	0.32433	
436.00	0.32662	
437.00	0.32883	
438.00	0.33086	
439.00	0.33277	
440.00	0.33386	
441.00	0.33580	
442.00	0.33734	
443.00	0.33780	
444.00	0.33829	
445.00	0.33888	
446.00	0.33916	
447.00	0.33941	
448.00	0.33907	
449.00	0.33836	
450.00	0.33764	
451.00	0.33659	
452.00	0.33570	
453.00	0.33419	
454.00	0.33317	
455.00	0.33161	
456.00	0.33033	
457.00	0.32890	
458.00	0.32745	
459.00	0.32623	
460.00	0.32439	
461.00	0.32344	
462.00	0.32226	
463.00	0.32153	
464.00	0.32039	
465.00	0.31902	
466.00	0.31767	
467.00	0.31637	
468.00	0.31575	
469.00	0.31444	
470.00	0.31315	
471.00	0.31161	
472.00	0.30990	
473.00	0.30773	
474.00	0.30461	
475.00	0.30192	
476.00	0.29863	
477.00	0.29460	
478.00	0.29139	
479.00	0.28677	
480.00	0.28235	
481.00	0.27766	
482.00	0.27251	
483.00	0.26775	
484.00	0.26253	
485.00	0.25678	
486.00	0.24976	
487.00	0.24369	
488.00	0.23951	
489.00	0.23579	
490.00	0.23168	
491.00	0.22677	
492.00	0.22271	
493.00	0.21824	
494.00	0.21458	
495.00	0.21126	
496.00	0.20778	
497.00	0.20468	
498.00	0.20187	
499.00	0.19983	
500.00	0.19736	
501.00	0.19530	
502.00	0.19384	
503.00	0.19234	
504.00	0.19095	
505.00	0.19031	
506.00	0.18927	
507.00	0.18843	
508.00	0.18801	
509.00	0.18792	
510.00	0.18709	
511.00	0.18694	
512.00	0.18656	
513.00	0.18637	
514.00	0.18641	
515.00	0.18673	
516.00	0.18673	
517.00	0.18652	
518.00	0.18658	
519.00	0.18685	
520.00	0.18693	
521.00	0.18717	
522.00	0.18711	
523.00	0.18738	
524.00	0.18763	
525.00	0.18762	
526.00	0.18734	
527.00	0.18771	
528.00	0.18759	
529.00	0.18775	
530.00	0.18801	
531.00	0.18806	
532.00	0.18791	
533.00	0.18828	
534.00	0.18799	
535.00	0.18811	
536.00	0.18802	
537.00	0.18832	
538.00	0.18858	
539.00	0.18851	
540.00	0.18853	
541.00	0.18847	
542.00	0.18850	
543.00	0.18849	
544.00	0.18863	
545.00	0.18887	
546.00	0.18842	
547.00	0.18884	
548.00	0.18872	
549.00	0.18861	
550.00	0.18874	
551.00	0.18909	
552.00	0.18895	
553.00	0.18898	
554.00	0.18913	
555.00	0.18916	
556.00	0.18940	
557.00	0.18896	
558.00	0.18896	
559.00	0.18929	
560.00	0.18961	
561.00	0.18949	
562.00	0.18906	
563.00	0.18912	
564.00	0.18972	
565.00	0.18946	
566.00	0.18934	
567.00	0.18921	
568.00	0.18914	
569.00	0.18891	
570.00	0.18886	
571.00	0.18825	
572.00	0.18792	
573.00	0.18781	
574.00	0.18823	
575.00	0.18788	
576.00	0.18774	
577.00	0.18758	
578.00	0.18804	
579.00	0.18695	
580.00	0.18764	
581.00	0.18764	
582.00	0.18794	
583.00	0.18647	
584.00	0.18735	
585.00	0.18842	
586.00	0.18774	
587.00	0.18773	
588.00	0.18804	
589.00	0.18813	
590.00	0.18862	
591.00	0.18901	
592.00	0.18892	
593.00	0.18866	
594.00	0.18836	
595.00	0.18832	
596.00	0.18880	
597.00	0.18889	
598.00	0.18887	
599.00	0.18885	
600.00	0.18856	
601.00	0.18853	
602.00	0.18852	
603.00	0.18867	
604.00	0.18880	
605.00	0.18870	
606.00	0.18867	
607.00	0.18869	
608.00	0.18880	
609.00	0.18888	
610.00	0.18899	
611.00	0.18893	
612.00	0.18911	
613.00	0.18872	
614.00	0.18881	
615.00	0.18883	
616.00	0.18894	
617.00	0.18906	
618.00	0.18934	
619.00	0.18961	
620.00	0.18961	
621.00	0.18962	
622.00	0.18926	
623.00	0.18904	
624.00	0.18858	
625.00	0.18861	
626.00	0.18920	
627.00	0.18935	
628.00	0.18976	
629.00	0.18976	
630.00	0.18961	
631.00	0.18923	
632.00	0.18851	
633.00	0.18864	
634.00	0.18855	
635.00	0.18867	
636.00	0.18877	
637.00	0.18920	
638.00	0.18962	
639.00	0.18998	
640.00	0.18987	
641.00	0.19021	
642.00	0.18971	
643.00	0.18962	
644.00	0.18975	
645.00	0.18958	
646.00	0.18975	
647.00	0.18956	
648.00	0.18948	
649.00	0.18918	
650.00	0.18922	
651.00	0.18943	
652.00	0.18908	
653.00	0.18920	
654.00	0.18975	
655.00	0.18602	
656.00	0.18245	
657.00	0.18362	
658.00	0.18611	
659.00	0.18862	
660.00	0.18897	
661.00	0.18887	
662.00	0.18876	
663.00	0.18845	
664.00	0.18866	
665.00	0.18869	
666.00	0.18853	
667.00	0.18840	
668.00	0.18822	
669.00	0.18819	
670.00	0.18787	
671.00	0.18784	
672.00	0.18727	
673.00	0.18741	
674.00	0.18750	
675.00	0.18750	
676.00	0.18719	
677.00	0.18730	
678.00	0.18687	
679.00	0.18693	
680.00	0.18682	
681.00	0.18687	
682.00	0.18673	
683.00	0.18680	
684.00	0.18643	
685.00	0.18624	
686.00	0.18616	
687.00	0.18632	
688.00	0.18608	
689.00	0.18618	
690.00	0.18594	
691.00	0.18580	
692.00	0.18563	
693.00	0.18553	
694.00	0.18575	
695.00	0.18560	
696.00	0.18539	
697.00	0.18500	
698.00	0.18495	
699.00	0.18504	
700.00	0.18491	
701.00	0.18498	
702.00	0.18473	
703.00	0.18455	
704.00	0.18475	
705.00	0.18470	
706.00	0.18455	
707.00	0.18395	
708.00	0.18406	
709.00	0.18424	
710.00	0.18423	
711.00	0.18397	
712.00	0.18418	
713.00	0.18391	
714.00	0.18376	
715.00	0.18377	
716.00	0.18395	
717.00	0.18395	
718.00	0.18358	
719.00	0.18352	
720.00	0.18360	
721.00	0.18335	
722.00	0.18313	
723.00	0.18324	
724.00	0.18312	
725.00	0.18292	
726.00	0.18253	
727.00	0.18273	
728.00	0.18258	
729.00	0.18230	
730.00	0.18215	
731.00	0.18175	
732.00	0.18176	
733.00	0.18177	
734.00	0.18133	
735.00	0.18131	
736.00	0.18114	
737.00	0.18099	
738.00	0.18137	
739.00	0.18084	
740.00	0.18064	
741.00	0.18098	
742.00	0.18067	
743.00	0.18029	
744.00	0.18079	
745.00	0.18034	
746.00	0.18040	
747.00	0.18015	
748.00	0.18029	
749.00	0.18019	
750.00	0.17940	
751.00	0.17960	
752.00	0.17977	
753.00	0.17962	
754.00	0.17918	
755.00	0.17927	
756.00	0.17880	
757.00	0.17820	
758.00	0.17828	
759.00	0.17893	
760.00	0.17807	
761.00	0.17804	
762.00	0.17896	
763.00	0.17832	
764.00	0.17771	
765.00	0.17708	
766.00	0.17812	
767.00	0.17842	
768.00	0.17733	
769.00	0.17661	
770.00	0.17713	
771.00	0.17662	
772.00	0.17727	
773.00	0.17688	
774.00	0.17679	
775.00	0.17675	
776.00	0.17659	
777.00	0.17632	
778.00	0.17619	
779.00	0.17557	
780.00	0.17596	
781.00	0.17581	
782.00	0.17527	
783.00	0.17559	
784.00	0.17552	
785.00	0.17547	
786.00	0.17496	
787.00	0.17511	
788.00	0.17449	
789.00	0.17456	
790.00	0.17491	
791.00	0.17483	
792.00	0.17441	
793.00	0.17444	
794.00	0.17359	
795.00	0.17361	
796.00	0.17448	
797.00	0.17415	
798.00	0.17345	
799.00	0.17336	
800.00	0.17363	
